Time, PosX, PosY, VelX, VelY, AccX, AccY, Rot, RotSpeed, MeasAccX, MeasAccY, MeasRot, AccError, RotError, Q_acc, Q_rot
0.050000, 0.000029, 0.001352, 0.001145, 0.054060, 0.022916, 1.081925, 0.002993, 0.061051, 0.023068, 1.089133, 0.073022, 0.100000, 0.200000, 0.010000, 0.020000
0.100000, -0.000161, 0.005422, -0.003221, 0.108468, -0.037768, 1.085354, -0.003876, -0.051127, -0.093269, 1.088490, -0.170967, 0.100000, 0.200000, 0.010000, 0.020000
0.150000, -0.000106, 0.012347, -0.001514, 0.164703, -0.007352, 1.102001, 0.017505, 0.157542, 0.041526, 1.128751, 0.515165, 0.100000, 0.200000, 0.010000, 0.020000
0.200000, -0.000962, 0.021266, -0.010081, 0.212435, -0.068813, 1.046775, 0.024968, 0.154346, -0.195906, 0.932577, 0.147523, 0.100000, 0.200000, 0.010000, 0.020000
0.250000, -0.001475, 0.033067, -0.012829, 0.263613, -0.063876, 1.038500, 0.030826, 0.140747, -0.052285, 1.019073, 0.108296, 0.100000, 0.200000, 0.010000, 0.020000
0.300000, -0.001717, 0.047291, -0.012210, 0.313512, -0.037141, 1.024295, 0.016892, -0.009622, 0.029912, 0.988670, -0.390022, 0.100000, 0.200000, 0.010000, 0.020000
0.350000, -0.002529, 0.064819, -0.015203, 0.368916, -0.045106, 1.053679, 0.031479, 0.097979, -0.065793, 1.129988, 0.378699, 0.100000, 0.200000, 0.010000, 0.020000
0.400000, -0.003173, 0.083813, -0.016266, 0.416284, -0.036691, 1.016145, 0.047782, 0.179646, -0.014429, 0.916852, 0.396214, 0.100000, 0.200000, 0.010000, 0.020000
0.450000, -0.004000, 0.106441, -0.017889, 0.470705, -0.035179, 1.041877, 0.049646, 0.128399, -0.031140, 1.110620, -0.008686, 0.100000, 0.200000, 0.010000, 0.020000
0.500000, -0.005483, 0.131408, -0.023174, 0.523639, -0.060494, 1.047908, 0.065209, 0.194588, -0.128476, 1.064106, 0.372463, 0.100000, 0.200000, 0.010000, 0.020000
0.550000, -0.006108, 0.158142, -0.022318, 0.571206, -0.032442, 1.012999, 0.057157, 0.065231, 0.043101, 0.918986, -0.283257, 0.100000, 0.200000, 0.010000, 0.020000
0.600000, -0.007227, 0.187191, -0.023701, 0.616953, -0.030701, 0.977347, 0.067258, 0.115190, -0.026007, 0.881196, 0.249956, 0.100000, 0.200000, 0.010000, 0.020000
0.650000, -0.008714, 0.218905, -0.026892, 0.663600, -0.042792, 0.961136, 0.067518, 0.074888, -0.075428, 0.917380, -0.033904, 0.100000, 0.200000, 0.010000, 0.020000
0.700000, -0.010297, 0.253190, -0.030184, 0.711053, -0.051239, 0.956707, 0.071585, 0.077255, -0.074047, 0.944747, 0.083649, 0.100000, 0.200000, 0.010000, 0.020000
0.750000, -0.011615, 0.291265, -0.031157, 0.767147, -0.039564, 1.017398, 0.080919, 0.117535, -0.008031, 1.181317, 0.226330, 0.100000, 0.200000, 0.010000, 0.020000
0.800000, -0.013721, 0.330485, -0.036236, 0.815470, -0.062393, 0.998645, 0.090345, 0.143700, -0.124059, 0.947990, 0.214378, 0.100000, 0.200000, 0.010000, 0.020000
0.850000, -0.014858, 0.373386, -0.034670, 0.870872, -0.027846, 1.038972, 0.087490, 0.069600, 0.065480, 1.147911, -0.130574, 0.100000, 0.200000, 0.010000, 0.020000
0.900000, -0.016253, 0.418282, -0.033741, 0.923159, -0.010711, 1.041474, 0.092197, 0.078660, 0.035579, 1.048234, 0.103136, 0.100000, 0.200000, 0.010000, 0.020000
0.950000, -0.018908, 0.465052, -0.040218, 0.970939, -0.054601, 1.009754, 0.091708, 0.045982, -0.173171, 0.924060, -0.042297, 0.100000, 0.200000, 0.010000, 0.020000
1.000000, -0.019901, 0.509763, -0.036183, 0.989673, -0.004601, 0.775051, 0.092705, 0.036350, 0.130474, 0.140995, 0.010328, 0.100000, 0.200000, 0.010000, 0.020000
1.050000, -0.021573, 0.556668, -0.035528, 1.006322, 0.001945, 0.611605, 0.083598, -0.044456, 0.019630, 0.170049, -0.262759, 0.100000, 0.200000, 0.010000, 0.020000
1.100000, -0.024180, 0.604295, -0.040618, 1.015376, -0.036424, 0.452378, 0.076300, -0.082000, -0.140079, 0.022215, -0.183427, 0.100000, 0.200000, 0.010000, 0.020000
1.150000, -0.026578, 0.653251, -0.044445, 1.023165, -0.051265, 0.342653, 0.066541, -0.123874, -0.091359, 0.046224, -0.236998, 0.100000, 0.200000, 0.010000, 0.020000
1.200000, -0.029023, 0.703580, -0.048000, 1.032453, -0.058600, 0.284606, 0.062064, -0.111176, -0.078415, 0.127790, -0.076870, 0.100000, 0.200000, 0.010000, 0.020000
1.250000, -0.030976, 0.754820, -0.047683, 1.042076, -0.034572, 0.250513, 0.069060, -0.018252, 0.030340, 0.158407, 0.232787, 0.100000, 0.200000, 0.010000, 0.020000
1.300000, -0.032458, 0.805897, -0.043510, 1.046240, 0.009107, 0.188621, 0.071752, 0.008428, 0.127107, 0.021418, 0.080507, 0.100000, 0.200000, 0.010000, 0.020000
1.350000, -0.034502, 0.858146, -0.042309, 1.053807, 0.014629, 0.174827, 0.076411, 0.039800, 0.029547, 0.137560, 0.124554, 0.100000, 0.200000, 0.010000, 0.020000
1.400000, -0.036661, 0.909929, -0.041963, 1.055519, 0.011773, 0.122790, 0.068138, -0.036177, 0.004057, -0.017789, -0.241437, 0.100000, 0.200000, 0.010000, 0.020000
1.450000, -0.038194, 0.961719, -0.037939, 1.054547, 0.037203, 0.070148, 0.082760, 0.085461, 0.105904, -0.072068, 0.414073, 0.100000, 0.200000, 0.010000, 0.020000
1.500000, -0.039560, 1.014194, -0.033049, 1.055930, 0.059629, 0.054425, 0.088070, 0.093133, 0.120214, 0.011947, 0.113859, 0.100000, 0.200000, 0.010000, 0.020000
1.550000, -0.042336, 1.066500, -0.037550, 1.055163, 0.004238, 0.028604, 0.095828, 0.116089, -0.145404, -0.041154, 0.178107, 0.100000, 0.200000, 0.010000, 0.020000
1.600000, -0.044634, 1.119502, -0.039999, 1.057887, -0.015460, 0.038184, 0.097098, 0.082528, -0.068674, 0.064067, -0.008138, 0.100000, 0.200000, 0.010000, 0.020000
1.649999, -0.046452, 1.171917, -0.039517, 1.056506, -0.006163, 0.013820, 0.102743, 0.093768, 0.018952, -0.052001, 0.124134, 0.100000, 0.200000, 0.010000, 0.020000
1.699999, -0.048268, 1.224138, -0.038778, 1.053319, 0.001583, -0.014887, 0.108712, 0.103247, 0.022511, -0.092440, 0.128852, 0.100000, 0.200000, 0.010000, 0.020000
1.749999, -0.050989, 1.276836, -0.043594, 1.052889, -0.034654, -0.012561, 0.117061, 0.126839, -0.132553, -0.006279, 0.190575, 0.100000, 0.200000, 0.010000, 0.020000
1.799999, -0.053230, 1.328416, -0.045438, 1.045711, -0.035481, -0.061044, 0.112741, 0.047910, -0.037715, -0.192024, -0.165320, 0.100000, 0.200000, 0.010000, 0.020000
1.849999, -0.055446, 1.381229, -0.046589, 1.046429, -0.030864, -0.033135, 0.120663, 0.088821, -0.018390, 0.042263, 0.199345, 0.100000, 0.200000, 0.010000, 0.020000
1.899999, -0.057980, 1.433050, -0.049168, 1.041903, -0.038536, -0.054378, 0.130882, 0.131598, -0.059264, -0.111768, 0.247161, 0.100000, 0.200000, 0.010000, 0.020000
1.949999, -0.059715, 1.485663, -0.046272, 1.042841, -0.002831, -0.027307, 0.133266, 0.100533, 0.093629, 0.045830, 0.016610, 0.100000, 0.200000, 0.010000, 0.020000
1.999999, -0.062080, 1.538678, -0.046717, 1.047142, -0.005077, 0.014640, 0.136540, 0.087556, -0.011144, 0.127960, 0.052498, 0.100000, 0.200000, 0.010000, 0.020000
2.049999, -0.064014, 1.590587, -0.044418, 1.044964, 0.013823, -0.006898, 0.124339, -0.035179, 0.064881, -0.065085, -0.366756, 0.100000, 0.200000, 0.010000, 0.020000
2.099999, -0.066829, 1.642498, -0.047546, 1.042564, -0.014447, -0.022116, 0.135771, 0.062477, -0.090820, -0.063228, 0.326302, 0.100000, 0.200000, 0.010000, 0.020000
2.149999, -0.070072, 1.694459, -0.053563, 1.040587, -0.053648, -0.028565, 0.133570, 0.023058, -0.159551, -0.045986, -0.083435, 0.100000, 0.200000, 0.010000, 0.020000
2.199999, -0.072191, 1.745689, -0.052336, 1.034389, -0.024708, -0.063873, 0.143841, 0.090557, 0.053475, -0.159262, 0.272910, 0.100000, 0.200000, 0.010000, 0.020000
2.249999, -0.074354, 1.797463, -0.050541, 1.032032, -0.002270, -0.057683, 0.143593, 0.055200, 0.058349, -0.040960, -0.040320, 0.100000, 0.200000, 0.010000, 0.020000
2.299999, -0.077674, 1.849943, -0.055592, 1.035089, -0.038821, -0.013698, 0.140843, 0.014411, -0.137566, 0.105129, -0.095781, 0.100000, 0.200000, 0.010000, 0.020000
2.349999, -0.081207, 1.901518, -0.061936, 1.033390, -0.071421, -0.021206, 0.134771, -0.035875, -0.159492, -0.041488, -0.171727, 0.100000, 0.200000, 0.010000, 0.020000
2.399999, -0.084680, 1.953816, -0.067299, 1.036421, -0.084685, 0.009082, 0.134010, -0.028231, -0.120518, 0.090905, -0.007579, 0.100000, 0.200000, 0.010000, 0.020000
2.449999, -0.088535, 2.005259, -0.073935, 1.034440, -0.102466, -0.008943, 0.132313, -0.030343, -0.150503, -0.057639, -0.036048, 0.100000, 0.200000, 0.010000, 0.020000
2.499999, -0.092163, 2.056355, -0.077830, 1.030157, -0.093374, -0.037343, 0.147617, 0.094186, -0.068809, -0.114065, 0.430610, 0.100000, 0.200000, 0.010000, 0.020000
2.549999, -0.095188, 2.108386, -0.076352, 1.031850, -0.047870, -0.010988, 0.145581, 0.044247, 0.075060, 0.060212, -0.090667, 0.100000, 0.200000, 0.010000, 0.020000
2.599999, -0.098493, 2.160006, -0.075172, 1.031556, -0.021413, -0.009091, 0.149350, 0.055770, 0.050062, -0.003969, 0.086898, 0.100000, 0.200000, 0.010000, 0.020000
2.649999, -0.101693, 2.212078, -0.072589, 1.034257, 0.005636, 0.014268, 0.139289, -0.039353, 0.078711, 0.077375, -0.296334, 0.100000, 0.200000, 0.010000, 0.020000
2.699999, -0.105090, 2.263684, -0.070896, 1.034193, 0.016079, 0.008510, 0.144196, 0.011543, 0.044291, -0.007046, 0.149042, 0.100000, 0.200000, 0.010000, 0.020000
2.749999, -0.109461, 2.316261, -0.075381, 1.039972, -0.023075, 0.048147, 0.144612, 0.010345, -0.128853, 0.155231, 0.007110, 0.100000, 0.200000, 0.010000, 0.020000
2.799999, -0.114153, 2.368944, -0.082120, 1.046279, -0.064421, 0.077018, 0.139130, -0.034068, -0.176120, 0.155013, -0.154052, 0.100000, 0.200000, 0.010000, 0.020000
2.849998, -0.118432, 2.420027, -0.085915, 1.041834, -0.068669, 0.015597, 0.136533, -0.040683, -0.080143, -0.150336, -0.058556, 0.100000, 0.200000, 0.010000, 0.020000
2.899998, -0.123015, 2.471880, -0.090610, 1.041007, -0.078006, 0.003705, 0.144818, 0.035710, -0.103232, -0.028422, 0.242091, 0.100000, 0.200000, 0.010000, 0.020000
2.949998, -0.128133, 2.524758, -0.097571, 1.046329, -0.100666, 0.041735, 0.139459, -0.017177, -0.161884, 0.144474, -0.160053, 0.100000, 0.200000, 0.010000, 0.020000
2.999998, -0.133279, 2.577673, -0.103486, 1.051832, -0.107195, 0.067024, 0.121399, -0.144519, -0.124832, 0.135344, -0.488543, 0.100000, 0.200000, 0.010000, 0.020000
3.049998, -0.138064, 2.630120, -0.105578, 1.053756, -0.083003, 0.056455, 0.128792, -0.036296, -0.017647, 0.027903, 0.256078, 0.100000, 0.200000, 0.010000, 0.020000
3.099998, -0.141406, 2.682605, -0.096979, 1.054869, 0.011378, 0.043797, 0.119661, -0.090460, 0.266353, 0.009601, -0.236788, 0.100000, 0.200000, 0.010000, 0.020000
3.149998, -0.146663, 2.735387, -0.099050, 1.056961, -0.008165, 0.043070, 0.119290, -0.059718, -0.060960, 0.041105, 0.023335, 0.100000, 0.200000, 0.010000, 0.020000
3.199998, -0.151328, 2.788218, -0.097598, 1.058669, 0.005607, 0.039778, 0.126823, 0.018155, 0.042811, 0.030886, 0.228532, 0.100000, 0.200000, 0.010000, 0.020000
3.249998, -0.156047, 2.840809, -0.096358, 1.058211, 0.012710, 0.021662, 0.132817, 0.055809, 0.031899, -0.027281, 0.157532, 0.100000, 0.200000, 0.010000, 0.020000
3.299998, -0.160451, 2.893188, -0.093233, 1.055799, 0.031139, -0.004212, 0.144886, 0.124500, 0.080928, -0.074111, 0.310075, 0.100000, 0.200000, 0.010000, 0.020000
3.349998, -0.165690, 2.946234, -0.095528, 1.057221, 0.002623, 0.007875, 0.142461, 0.060459, -0.074415, 0.040530, -0.112552, 0.100000, 0.200000, 0.010000, 0.020000
3.399998, -0.170513, 2.998430, -0.095705, 1.053400, 0.000343, -0.023327, 0.134391, -0.021663, -0.005818, -0.107622, -0.243521, 0.100000, 0.200000, 0.010000, 0.020000
3.449998, -0.174957, 3.051156, -0.093560, 1.052770, 0.016095, -0.019362, 0.140539, 0.031870, 0.058650, -0.008652, 0.176493, 0.100000, 0.200000, 0.010000, 0.020000
3.499998, -0.179222, 3.104993, -0.090300, 1.059441, 0.034276, 0.037192, 0.140034, 0.016335, 0.083395, 0.189976, -0.025634, 0.100000, 0.200000, 0.010000, 0.020000
3.549998, -0.183486, 3.157876, -0.087288, 1.060450, 0.043886, 0.030895, 0.136755, -0.013987, 0.069846, 0.013885, -0.095903, 0.100000, 0.200000, 0.010000, 0.020000
3.599998, -0.188967, 3.211460, -0.092412, 1.065261, -0.010290, 0.055081, 0.130736, -0.053370, -0.156648, 0.120422, -0.159766, 0.100000, 0.200000, 0.010000, 0.020000
3.649998, -0.193417, 3.265444, -0.091778, 1.072087, -0.001788, 0.085226, 0.138419, 0.023265, 0.021181, 0.166664, 0.230297, 0.100000, 0.200000, 0.010000, 0.020000
3.699998, -0.198823, 3.317682, -0.096962, 1.067147, -0.039507, 0.017102, 0.129027, -0.054877, -0.141406, -0.166938, -0.265980, 0.100000, 0.200000, 0.010000, 0.020000
3.749998, -0.204285, 3.371206, -0.102459, 1.068909, -0.065576, 0.023817, 0.117765, -0.117934, -0.136006, 0.041956, -0.288288, 0.100000, 0.200000, 0.010000, 0.020000
3.799998, -0.210136, 3.424893, -0.109780, 1.071428, -0.095502, 0.033650, 0.107624, -0.149358, -0.176347, 0.060215, -0.234251, 0.100000, 0.200000, 0.010000, 0.020000
3.849998, -0.215514, 3.478255, -0.113111, 1.071534, -0.084813, 0.021981, 0.094489, -0.191313, -0.055937, -0.009543, -0.304658, 0.100000, 0.200000, 0.010000, 0.020000
3.899997, -0.220972, 3.532328, -0.115456, 1.075566, -0.070782, 0.043696, 0.104679, -0.045056, -0.032877, 0.102359, 0.350065, 0.100000, 0.200000, 0.010000, 0.020000
3.949997, -0.226739, 3.584795, -0.118410, 1.069216, -0.066445, -0.019486, 0.094657, -0.102572, -0.054726, -0.190176, -0.257954, 0.100000, 0.200000, 0.010000, 0.020000
3.999997, -0.232105, 3.637822, -0.117747, 1.065684, -0.036943, -0.038425, 0.092380, -0.081466, 0.042756, -0.089590, -0.024446, 0.100000, 0.200000, 0.010000, 0.020000
4.049997, -0.237294, 3.685622, -0.114944, 1.029801, -0.002517, -0.289846, 0.080174, -0.141669, 0.090490, -0.969073, -0.304311, 0.100000, 0.200000, 0.010000, 0.020000
4.099998, -0.242266, 3.732571, -0.110206, 0.989208, 0.033491, -0.483073, 0.075419, -0.124435, 0.130769, -1.005091, -0.077878, 0.100000, 0.200000, 0.010000, 0.020000
4.149998, -0.247742, 3.778337, -0.108580, 0.945750, 0.033131, -0.625989, 0.079215, -0.050271, 0.032157, -1.012083, 0.150087, 0.100000, 0.200000, 0.010000, 0.020000
4.199998, -0.253743, 3.823077, -0.110755, 0.903426, 0.004764, -0.707602, 0.085832, 0.017320, -0.071872, -0.928084, 0.199921, 0.100000, 0.200000, 0.010000, 0.020000
4.249998, -0.258712, 3.865082, -0.107004, 0.853790, 0.030774, -0.813141, 0.079295, -0.037482, 0.101041, -1.098261, -0.185534, 0.100000, 0.200000, 0.010000, 0.020000
4.299998, -0.263787, 3.905711, -0.103981, 0.806607, 0.041761, -0.861451, 0.074818, -0.056753, 0.071445, -0.991965, -0.108813, 0.100000, 0.200000, 0.010000, 0.020000
4.349998, -0.268235, 3.944402, -0.097529, 0.760024, 0.074063, -0.887438, 0.053687, -0.192180, 0.161327, -0.957644, -0.558045, 0.100000, 0.200000, 0.010000, 0.020000
4.399999, -0.272123, 3.980299, -0.088231, 0.709435, 0.115484, -0.933471, 0.047780, -0.164773, 0.227387, -1.057830, -0.090733, 0.100000, 0.200000, 0.010000, 0.020000
4.449999, -0.276685, 4.013944, -0.084299, 0.658637, 0.101847, -0.964004, 0.034741, -0.200307, 0.065004, -1.046493, -0.296303, 0.100000, 0.200000, 0.010000, 0.020000
4.499999, -0.280467, 4.046043, -0.077294, 0.612762, 0.116004, -0.946786, 0.025047, -0.197933, 0.154252, -0.900270, -0.191519, 0.100000, 0.200000, 0.010000, 0.020000
4.549999, -0.285236, 4.075357, -0.078050, 0.564545, 0.067470, -0.953283, 0.020305, -0.159769, -0.063647, -0.970837, -0.056667, 0.100000, 0.200000, 0.010000, 0.020000
4.599999, -0.289581, 4.101809, -0.077970, 0.513233, 0.043089, -0.980292, 0.018739, -0.112228, -0.022780, -1.053259, 0.016208, 0.100000, 0.200000, 0.010000, 0.020000
4.650000, -0.293660, 4.125546, -0.077279, 0.459853, 0.032253, -1.012610, 0.023163, -0.037932, 0.002979, -1.099919, 0.162781, 0.100000, 0.200000, 0.010000, 0.020000
4.700000, -0.297252, 4.148266, -0.074219, 0.415431, 0.042967, -0.966646, 0.034624, 0.060959, 0.071912, -0.842472, 0.328120, 0.100000, 0.200000, 0.010000, 0.020000
4.750000, -0.301573, 4.168042, -0.076215, 0.368425, 0.012284, -0.956826, 0.028758, -0.005034, -0.070607, -0.930294, -0.183319, 0.100000, 0.200000, 0.010000, 0.020000
4.800000, -0.305443, 4.185391, -0.076070, 0.321362, 0.008814, -0.951063, 0.023193, -0.044368, -0.000560, -0.935495, -0.150630, 0.100000, 0.200000, 0.010000, 0.020000
4.850000, -0.308659, 4.199973, -0.072028, 0.271950, 0.035475, -0.964828, 0.026260, -0.005241, 0.107502, -1.002017, 0.100463, 0.100000, 0.200000, 0.010000, 0.020000
4.900001, -0.312459, 4.212537, -0.071772, 0.224786, 0.024237, -0.956852, 0.036307, 0.071081, -0.006123, -0.935305, 0.277271, 0.100000, 0.200000, 0.010000, 0.020000
4.950001, -0.315795, 4.221891, -0.069167, 0.172634, 0.034550, -0.988750, 0.040956, 0.079187, 0.062411, -1.074924, 0.101085, 0.100000, 0.200000, 0.010000, 0.020000
5.000001, -0.319604, 4.234009, -0.069900, 0.152694, 0.016339, -0.770377, -0.013699, -0.354746, -0.032857, -0.180428, -1.527043, 0.100000, 0.200000, 0.010000, 0.020000
5.050001, -0.323190, 4.245907, -0.069784, 0.146827, 0.011149, -0.528655, -0.072899, -0.661697, -0.002875, 0.124373, -1.490945, 0.100000, 0.200000, 0.010000, 0.020000
5.100001, -0.326565, 4.254953, -0.068599, 0.135172, 0.015793, -0.419255, -0.129882, -0.838620, 0.028339, -0.123706, -1.316589, 0.100000, 0.200000, 0.010000, 0.020000
5.150002, -0.330580, 4.263111, -0.071588, 0.126221, -0.012181, -0.330329, -0.187464, -0.954483, -0.087754, -0.090088, -1.267492, 0.100000, 0.200000, 0.010000, 0.020000
5.200002, -0.333391, 4.271289, -0.067297, 0.123950, 0.024098, -0.224868, -0.260400, -1.141133, 0.122110, 0.060039, -1.645381, 0.100000, 0.200000, 0.010000, 0.020000
5.250002, -0.337228, 4.279500, -0.069233, 0.127040, 0.000841, -0.118757, -0.339968, -1.307785, -0.061992, 0.167911, -1.758004, 0.100000, 0.200000, 0.010000, 0.020000
5.300002, -0.340798, 4.286061, -0.069871, 0.123334, -0.004190, -0.102230, -0.424149, -1.446905, -0.017779, -0.057583, -1.822748, 0.100000, 0.200000, 0.010000, 0.020000
5.350002, -0.344136, 4.293070, -0.069081, 0.124280, 0.003209, -0.057389, -0.508687, -1.537169, 0.023198, 0.063751, -1.781022, 0.100000, 0.200000, 0.010000, 0.020000
5.400002, -0.347377, 4.299752, -0.067615, 0.124780, 0.012874, -0.032446, -0.585227, -1.534815, 0.038984, 0.034938, -1.528456, 0.100000, 0.200000, 0.010000, 0.020000
5.450003, -0.352014, 4.305936, -0.074914, 0.123067, -0.045928, -0.033116, -0.660525, -1.524132, -0.204784, -0.034926, -1.495271, 0.100000, 0.200000, 0.010000, 0.020000
5.500003, -0.355503, 4.311606, -0.075250, 0.118653, -0.031415, -0.053530, -0.726656, -1.449539, 0.007791, -0.108680, -1.248023, 0.100000, 0.200000, 0.010000, 0.020000
5.550003, -0.360322, 4.317065, -0.083178, 0.113435, -0.078479, -0.072348, -0.799558, -1.452685, -0.205625, -0.123184, -1.461182, 0.100000, 0.200000, 0.010000, 0.020000
5.600003, -0.363997, 4.322481, -0.083464, 0.108781, -0.051546, -0.080026, -0.891726, -1.597297, 0.021216, -0.100768, -1.987976, 0.100000, 0.200000, 0.010000, 0.020000
5.650003, -0.367290, 4.328515, -0.080139, 0.109124, -0.007854, -0.047865, -0.980076, -1.660113, 0.110181, 0.039020, -1.829816, 0.100000, 0.200000, 0.010000, 0.020000
5.700004, -0.371311, 4.334684, -0.080557, 0.111560, -0.008041, -0.012108, -1.074372, -1.743696, -0.008543, 0.084492, -1.969502, 0.100000, 0.200000, 0.010000, 0.020000
5.750004, -0.375942, 4.340938, -0.084670, 0.115274, -0.035509, 0.019865, -1.159295, -1.726949, -0.109717, 0.106243, -1.681707, 0.100000, 0.200000, 0.010000, 0.020000
5.800004, -0.379666, 4.346629, -0.082984, 0.115661, -0.009884, 0.015377, -1.246028, -1.729806, 0.059344, 0.003252, -1.737525, 0.100000, 0.200000, 0.010000, 0.020000
5.850004, -0.383626, 4.352326, -0.082218, 0.115771, -0.000554, 0.010504, -1.330434, -1.714377, 0.024650, -0.002660, -1.672692, 0.100000, 0.200000, 0.010000, 0.020000
5.900004, -0.387832, 4.357669, -0.082836, 0.113429, -0.004927, -0.010727, -1.426112, -1.788107, -0.016740, -0.068083, -1.987293, 0.100000, 0.200000, 0.010000, 0.020000
5.950005, -0.391732, 4.363264, -0.081534, 0.112497, 0.006537, -0.013658, -1.512238, -1.763827, 0.037509, -0.021578, -1.698235, 0.100000, 0.200000, 0.010000, 0.020000
6.000005, -0.390467, 4.367261, -0.047887, 0.101756, 0.253208, -0.088117, -1.531497, -1.253516, 0.919604, -0.289273, 0.125120, 0.100000, 0.200000, 0.010000, 0.020000
6.050005, -0.387502, 4.372839, -0.003722, 0.101097, 0.486441, -0.060376, -1.551520, -0.937750, 1.116536, 0.014570, -0.084686, 0.100000, 0.200000, 0.010000, 0.020000
6.100005, -0.383471, 4.378570, 0.043144, 0.102772, 0.653340, -0.025631, -1.569727, -0.725427, 1.104226, 0.068234, -0.151823, 0.100000, 0.200000, 0.010000, 0.020000
6.150005, -0.378653, 4.383809, 0.087328, 0.102318, 0.738598, -0.019500, -1.581574, -0.544605, 0.968930, -0.002936, -0.056102, 0.100000, 0.200000, 0.010000, 0.020000
6.200006, -0.371627, 4.388932, 0.135107, 0.101541, 0.818914, -0.018034, -1.590212, -0.406970, 1.035892, -0.014076, -0.035141, 0.100000, 0.200000, 0.010000, 0.020000
6.250006, -0.362847, 4.395061, 0.182304, 0.107351, 0.865197, 0.031654, -1.582261, -0.197464, 0.990234, 0.165891, 0.368529, 0.100000, 0.200000, 0.010000, 0.020000
6.300006, -0.352541, 4.400246, 0.226249, 0.107545, 0.870270, 0.021370, -1.591118, -0.189938, 0.883972, -0.006412, -0.169606, 0.100000, 0.200000, 0.010000, 0.020000
6.350006, -0.338976, 4.405527, 0.277040, 0.107846, 0.924145, 0.015686, -1.605003, -0.222425, 1.069693, 0.000329, -0.310192, 0.100000, 0.200000, 0.010000, 0.020000
6.400006, -0.324484, 4.410431, 0.320026, 0.105459, 0.900299, -0.007791, -1.602740, -0.123341, 0.835878, -0.071215, 0.144342, 0.100000, 0.200000, 0.010000, 0.020000
6.450006, -0.306802, 4.415292, 0.368513, 0.102559, 0.926002, -0.026371, -1.605999, -0.101813, 0.995440, -0.076566, -0.043654, 0.100000, 0.200000, 0.010000, 0.020000
6.500007, -0.286892, 4.419922, 0.416855, 0.098334, 0.941119, -0.047893, -1.612612, -0.113085, 0.981957, -0.106036, -0.143537, 0.100000, 0.200000, 0.010000, 0.020000
6.550007, -0.264582, 4.424903, 0.465723, 0.096716, 0.954534, -0.042141, -1.618465, -0.114551, 0.990778, -0.026602, -0.118511, 0.100000, 0.200000, 0.010000, 0.020000
6.600007, -0.239831, 4.429647, 0.515147, 0.094367, 0.967100, -0.043932, -1.608463, 0.001893, 1.001048, -0.048772, 0.316473, 0.100000, 0.200000, 0.010000, 0.020000
6.650007, -0.212733, 4.433738, 0.564329, 0.088592, 0.973223, -0.070422, -1.605104, 0.026062, 0.989764, -0.141984, 0.091357, 0.100000, 0.200000, 0.010000, 0.020000
6.700007, -0.183224, 4.437743, 0.613464, 0.082969, 0.976730, -0.085981, -1.615706, -0.062071, 0.986204, -0.128015, -0.300167, 0.100000, 0.200000, 0.010000, 0.020000
6.750008, -0.150443, 4.441483, 0.667842, 0.076785, 1.017751, -0.099939, -1.618589, -0.060442, 1.128572, -0.137649, -0.056043, 0.100000, 0.200000, 0.010000, 0.020000
6.800008, -0.116160, 4.445492, 0.716343, 0.073635, 1.000087, -0.086264, -1.622376, -0.066104, 0.952365, -0.049320, -0.081398, 0.100000, 0.200000, 0.010000, 0.020000
6.850008, -0.078889, 4.449984, 0.767622, 0.075052, 1.009519, -0.043841, -1.612017, 0.035056, 1.035003, 0.070768, 0.308344, 0.100000, 0.200000, 0.010000, 0.020000
6.900008, -0.040184, 4.453956, 0.812242, 0.074576, 0.966171, -0.031141, -1.623411, -0.062274, 0.849061, 0.003168, -0.325217, 0.100000, 0.200000, 0.010000, 0.020000
6.950008, 0.002496, 4.458292, 0.865919, 0.077057, 1.005913, -0.001248, -1.621360, -0.024041, 1.113279, 0.079512, 0.079248, 0.100000, 0.200000, 0.010000, 0.020000
7.000009, 0.041228, 4.462576, 0.879853, 0.079692, 0.736719, 0.018726, -1.627624, -0.061513, 0.009476, 0.072684, -0.162744, 0.100000, 0.200000, 0.010000, 0.020000
7.050009, 0.082687, 4.465730, 0.895107, 0.075295, 0.576947, -0.020762, -1.626727, -0.032099, 0.145313, -0.127439, 0.047363, 0.100000, 0.200000, 0.010000, 0.020000
7.100009, 0.124131, 4.469457, 0.898762, 0.074184, 0.390448, -0.021298, -1.618427, 0.041222, -0.113390, -0.022749, 0.239303, 0.100000, 0.200000, 0.010000, 0.020000
7.150009, 0.167508, 4.474325, 0.905483, 0.080526, 0.295672, 0.033533, -1.631342, -0.069648, 0.039630, 0.181665, -0.369171, 0.100000, 0.200000, 0.010000, 0.020000
7.200009, 0.210926, 4.478834, 0.906366, 0.084951, 0.192767, 0.053880, -1.630898, -0.040575, -0.085238, 0.108849, 0.037969, 0.100000, 0.200000, 0.010000, 0.020000
7.250010, 0.256225, 4.481989, 0.914380, 0.080401, 0.180746, 0.000255, -1.637502, -0.074447, 0.148269, -0.144617, -0.165954, 0.100000, 0.200000, 0.010000, 0.020000
7.300010, 0.301356, 4.486393, 0.918332, 0.082811, 0.143093, 0.017997, -1.630417, 0.005562, 0.041371, 0.065926, 0.221709, 0.100000, 0.200000, 0.010000, 0.020000
7.350010, 0.346918, 4.490838, 0.922153, 0.085471, 0.118419, 0.031032, -1.630529, 0.002668, 0.051761, 0.066246, -0.005149, 0.100000, 0.200000, 0.010000, 0.020000
7.400010, 0.392649, 4.495125, 0.924797, 0.086864, 0.094157, 0.029858, -1.620617, 0.075063, 0.028612, 0.026686, 0.270641, 0.100000, 0.200000, 0.010000, 0.020000
7.450010, 0.439514, 4.498768, 0.932675, 0.083752, 0.117628, -0.004236, -1.617796, 0.068160, 0.181036, -0.096340, 0.049511, 0.100000, 0.200000, 0.010000, 0.020000
7.500010, 0.486033, 4.503386, 0.936917, 0.086266, 0.105486, 0.015945, -1.616451, 0.052891, 0.072684, 0.070463, 0.011640, 0.100000, 0.200000, 0.010000, 0.020000
7.550011, 0.532359, 4.506762, 0.938123, 0.081079, 0.075370, -0.028359, -1.623747, -0.020702, -0.005992, -0.148047, -0.219516, 0.100000, 0.200000, 0.010000, 0.020000
7.600011, 0.579028, 4.510845, 0.939818, 0.080064, 0.060019, -0.025375, -1.624287, -0.017039, 0.018548, -0.017313, -0.007143, 0.100000, 0.200000, 0.010000, 0.020000
7.650011, 0.627258, 4.515653, 0.950093, 0.084022, 0.113870, 0.013324, -1.621285, 0.011497, 0.259351, 0.117870, 0.088587, 0.100000, 0.200000, 0.010000, 0.020000
7.700011, 0.676021, 4.519538, 0.962755, 0.082608, 0.165460, -0.002077, -1.630392, -0.060181, 0.304834, -0.043682, -0.253825, 0.100000, 0.200000, 0.010000, 0.020000
7.750011, 0.722808, 4.523357, 0.961303, 0.080577, 0.093464, -0.016350, -1.623931, 0.009931, -0.101036, -0.054910, 0.199345, 0.100000, 0.200000, 0.010000, 0.020000
7.800012, 0.770440, 4.527137, 0.962541, 0.078331, 0.068028, -0.026919, -1.624698, 0.000576, -0.000689, -0.055473, -0.024697, 0.100000, 0.200000, 0.010000, 0.020000
7.850012, 0.816870, 4.531073, 0.954807, 0.077317, -0.014408, -0.024463, -1.625273, -0.003892, -0.237115, -0.017828, -0.015962, 0.100000, 0.200000, 0.010000, 0.020000
7.900012, 0.864289, 4.534556, 0.952190, 0.073895, -0.028443, -0.040742, -1.628520, -0.026497, -0.066359, -0.084722, -0.087566, 0.100000, 0.200000, 0.010000, 0.020000
7.950012, 0.912350, 4.536695, 0.953814, 0.062453, -0.005895, -0.110370, -1.639083, -0.094885, 0.055021, -0.298473, -0.279641, 0.100000, 0.200000, 0.010000, 0.020000
8.000012, 0.954370, 4.540781, 0.918142, 0.063814, -0.267798, -0.059440, -1.636318, -0.039295, -0.975347, 0.078152, 0.110884, 0.100000, 0.200000, 0.010000, 0.020000
8.050013, 0.996019, 4.544992, 0.880243, 0.067681, -0.449241, -0.008806, -1.643838, -0.080421, -0.939421, 0.127984, -0.191523, 0.100000, 0.200000, 0.010000, 0.020000
8.100013, 1.036212, 4.550113, 0.837427, 0.078161, -0.599925, 0.072034, -1.650953, -0.103324, -1.007005, 0.290429, -0.165198, 0.100000, 0.200000, 0.010000, 0.020000
8.150013, 1.075179, 4.553611, 0.793973, 0.078636, -0.699553, 0.048885, -1.653664, -0.085143, -0.968707, -0.013655, -0.036027, 0.100000, 0.200000, 0.010000, 0.020000
8.200013, 1.112922, 4.556397, 0.752243, 0.073539, -0.749540, -0.006940, -1.664891, -0.136746, -0.884582, -0.157753, -0.276155, 0.100000, 0.200000, 0.010000, 0.020000
8.250013, 1.147901, 4.560094, 0.704170, 0.073375, -0.827983, -0.005587, -1.661982, -0.064590, -1.039903, -0.001933, 0.130346, 0.100000, 0.200000, 0.010000, 0.020000
8.300014, 1.181303, 4.564400, 0.657951, 0.077118, -0.863670, 0.024188, -1.662118, -0.041692, -0.960079, 0.104629, 0.020166, 0.100000, 0.200000, 0.010000, 0.020000
8.350014, 1.212272, 4.569015, 0.609460, 0.082880, -0.902957, 0.057897, -1.659896, -0.009807, -1.009094, 0.148962, 0.076333, 0.100000, 0.200000, 0.010000, 0.020000
8.400014, 1.240974, 4.573386, 0.560302, 0.086744, -0.932645, 0.065068, -1.651971, 0.052493, -1.012850, 0.084443, 0.220802, 0.100000, 0.200000, 0.010000, 0.020000
8.450014, 1.267765, 4.577887, 0.513307, 0.090506, -0.935333, 0.068835, -1.643979, 0.092225, -0.942594, 0.079010, 0.199561, 0.100000, 0.200000, 0.010000, 0.020000
8.500014, 1.292522, 4.582575, 0.468169, 0.094430, -0.923274, 0.072404, -1.644207, 0.056400, -0.890698, 0.082046, -0.040383, 0.100000, 0.200000, 0.010000, 0.020000
8.550014, 1.314696, 4.586938, 0.421503, 0.095246, -0.926992, 0.051643, -1.641315, 0.056933, -0.937034, -0.004444, 0.058374, 0.100000, 0.200000, 0.010000, 0.020000
8.600015, 1.333804, 4.590991, 0.370106, 0.092990, -0.964362, 0.015827, -1.630481, 0.116066, -1.065320, -0.080931, 0.275815, 0.100000, 0.200000, 0.010000, 0.020000
8.650015, 1.351421, 4.594463, 0.323869, 0.086304, -0.949691, -0.039524, -1.622551, 0.131812, -0.910057, -0.189059, 0.174353, 0.100000, 0.200000, 0.010000, 0.020000
8.700015, 1.365280, 4.598403, 0.269215, 0.082290, -1.002772, -0.054617, -1.618206, 0.115186, -1.146174, -0.095390, 0.070268, 0.100000, 0.200000, 0.010000, 0.020000
8.750015, 1.377866, 4.603454, 0.221441, 0.085837, -0.985263, -0.008137, -1.603714, 0.179839, -0.937959, 0.117431, 0.354503, 0.100000, 0.200000, 0.010000, 0.020000
8.800015, 1.387121, 4.606978, 0.168522, 0.080696, -1.012326, -0.043183, -1.592148, 0.198894, -1.085439, -0.137862, 0.250374, 0.100000, 0.200000, 0.010000, 0.020000
8.850016, 1.394210, 4.611508, 0.117453, 0.081963, -1.015679, -0.017819, -1.582486, 0.196802, -1.024737, 0.050705, 0.191150, 0.100000, 0.200000, 0.010000, 0.020000
8.900016, 1.398961, 4.616605, 0.067597, 0.087456, -1.008809, 0.029442, -1.579606, 0.145276, -0.990248, 0.157121, 0.006075, 0.100000, 0.200000, 0.010000, 0.020000
8.950016, 1.401076, 4.620942, 0.017135, 0.088476, -1.008968, 0.026090, -1.572190, 0.146403, -1.009399, 0.017032, 0.149447, 0.100000, 0.200000, 0.010000, 0.020000
9.000016, 1.407967, 4.625798, 0.012261, 0.092275, -0.671578, 0.044562, -1.575826, 0.065291, 0.239901, 0.094468, -0.153837, 0.100000, 0.200000, 0.010000, 0.020000
9.050016, 1.411479, 4.629347, 0.002032, 0.087506, -0.498715, -0.007239, -1.573071, 0.061519, -0.031712, -0.147184, 0.051328, 0.100000, 0.200000, 0.010000, 0.020000
9.100017, 1.413345, 4.633213, -0.007984, 0.084012, -0.388264, -0.030427, -1.576778, 0.011301, -0.089876, -0.093070, -0.124365, 0.100000, 0.200000, 0.010000, 0.020000
9.150017, 1.413631, 4.637554, -0.020088, 0.083611, -0.334152, -0.022134, -1.586747, -0.066686, -0.187964, 0.000269, -0.277375, 0.100000, 0.200000, 0.010000, 0.020000
9.200017, 1.413548, 4.641730, -0.028426, 0.082649, -0.272191, -0.021062, -1.590879, -0.072588, -0.104801, -0.018166, -0.088531, 0.100000, 0.200000, 0.010000, 0.020000
9.250017, 1.412786, 4.646466, -0.035791, 0.085532, -0.225964, 0.008075, -1.599289, -0.107977, -0.101076, 0.086790, -0.203582, 0.100000, 0.200000, 0.010000, 0.020000
9.300017, 1.411436, 4.650485, -0.042584, 0.084257, -0.192605, -0.004350, -1.594442, -0.032129, -0.102486, -0.037917, 0.172778, 0.100000, 0.200000, 0.010000, 0.020000
9.350018, 1.408908, 4.654285, -0.053196, 0.081495, -0.199878, -0.023188, -1.596326, -0.034180, -0.219527, -0.074079, -0.039720, 0.100000, 0.200000, 0.010000, 0.020000
9.400018, 1.408274, 4.657619, -0.048974, 0.075890, -0.094637, -0.056100, -1.613575, -0.149230, 0.189678, -0.145014, -0.460046, 0.100000, 0.200000, 0.010000, 0.020000
9.450018, 1.407401, 4.661315, -0.043127, 0.072910, -0.016315, -0.057391, -1.602720, -0.013629, 0.195276, -0.060879, 0.352705, 0.100000, 0.200000, 0.010000, 0.020000
9.500018, 1.404932, 4.664550, -0.045767, 0.067923, -0.029819, -0.073072, -1.613418, -0.087783, -0.066301, -0.115435, -0.288114, 0.100000, 0.200000, 0.010000, 0.020000
9.550018, 1.403638, 4.668070, -0.040816, 0.065612, 0.017868, -0.063130, -1.618998, -0.096599, 0.146699, -0.036270, -0.120414, 0.100000, 0.200000, 0.010000, 0.020000
9.600019, 1.401508, 4.672110, -0.040619, 0.067693, 0.012713, -0.024359, -1.604088, 0.049538, -0.001216, 0.080382, 0.444335, 0.100000, 0.200000, 0.010000, 0.020000
9.650019, 1.398914, 4.675285, -0.043598, 0.065358, -0.014051, -0.032626, -1.598863, 0.069888, -0.086353, -0.054959, 0.124864, 0.100000, 0.200000, 0.010000, 0.020000
9.700019, 1.397442, 4.678214, -0.039773, 0.061865, 0.019474, -0.046409, -1.592860, 0.088459, 0.110044, -0.083646, 0.138631, 0.100000, 0.200000, 0.010000, 0.020000
9.750019, 1.395878, 4.681029, -0.036293, 0.058171, 0.038022, -0.056579, -1.590147, 0.075797, 0.088131, -0.084052, 0.041588, 0.100000, 0.200000, 0.010000, 0.020000
9.800019, 1.393809, 4.684472, -0.036280, 0.059117, 0.024045, -0.028629, -1.588643, 0.058878, -0.013716, 0.046879, 0.013172, 0.100000, 0.200000, 0.010000, 0.020000
9.850019, 1.391895, 4.686182, -0.035890, 0.050129, 0.018035, -0.084576, -1.591489, 0.016012, 0.001799, -0.235719, -0.099796, 0.100000, 0.200000, 0.010000, 0.020000
9.900020, 1.389108, 4.688910, -0.041327, 0.047946, -0.028894, -0.069427, -1.579660, 0.097657, -0.155677, -0.028501, 0.318228, 0.100000, 0.200000, 0.010000, 0.020000
9.950020, 1.386885, 4.691353, -0.043524, 0.045300, -0.034463, -0.063314, -1.570472, 0.129526, -0.049508, -0.046801, 0.215623, 0.100000, 0.200000, 0.010000, 0.020000
10.000020, 1.385509, 4.693954, -0.039980, 0.044733, 0.004534, -0.044079, -1.565874, 0.115621, 0.109887, 0.007886, 0.078056, 0.100000, 0.200000, 0.010000, 0.020000
10.050020, 1.382994, 4.696139, -0.043014, 0.042548, -0.019609, -0.043935, -1.553038, 0.167852, -0.084830, -0.043548, 0.308957, 0.100000, 0.200000, 0.010000, 0.020000
10.100020, 1.379764, 4.698898, -0.050587, 0.044635, -0.068414, -0.012228, -1.558580, 0.064696, -0.200266, 0.073433, -0.213987, 0.100000, 0.200000, 0.010000, 0.020000
10.150021, 1.377923, 4.701507, -0.049174, 0.046478, -0.032629, 0.005943, -1.566305, -0.016445, 0.064048, 0.055032, -0.235653, 0.100000, 0.200000, 0.010000, 0.020000
10.200021, 1.375407, 4.704010, -0.050909, 0.047848, -0.033396, 0.013887, -1.567928, -0.022374, -0.035468, 0.035350, -0.038389, 0.100000, 0.200000, 0.010000, 0.020000
10.250021, 1.372281, 4.706222, -0.055940, 0.047302, -0.058281, 0.004707, -1.574456, -0.062420, -0.125508, -0.020093, -0.170608, 0.100000, 0.200000, 0.010000, 0.020000
10.300021, 1.369560, 4.709476, -0.057927, 0.053056, -0.051419, 0.045556, -1.567952, 0.008836, -0.032881, 0.155911, 0.201338, 0.100000, 0.200000, 0.010000, 0.020000
10.350021, 1.367645, 4.712115, -0.053962, 0.054897, -0.003028, 0.042323, -1.566695, 0.014870, 0.127702, 0.033589, 0.031172, 0.100000, 0.200000, 0.010000, 0.020000
10.400022, 1.364437, 4.716272, -0.057280, 0.065509, -0.026469, 0.105225, -1.569675, -0.012696, -0.089796, 0.275157, -0.087169, 0.100000, 0.200000, 0.010000, 0.020000
10.450022, 1.362248, 4.719800, -0.054176, 0.071520, 0.006306, 0.110772, -1.572158, -0.026373, 0.094851, 0.125759, -0.063323, 0.100000, 0.200000, 0.010000, 0.020000
10.500022, 1.359452, 4.722694, -0.054453, 0.071942, 0.001918, 0.072893, -1.569222, 0.005120, -0.009936, -0.029439, 0.090202, 0.100000, 0.200000, 0.010000, 0.020000
10.550022, 1.356335, 4.725523, -0.056839, 0.070214, -0.016456, 0.033115, -1.568543, 0.008249, -0.066095, -0.074348, 0.016703, 0.100000, 0.200000, 0.010000, 0.020000
